File: uv-vis/TiO2_120min.csv
nm; A
800,000000; 0,048894
799,000000; 0,048943
798,000000; 0,049010
797,000000; 0,049152
796,000000; 0,049373
795,000000; 0,049631
794,000000; 0,049950
793,000000; 0,050323
792,000000; 0,050730
791,000000; 0,051155
790,000000; 0,051581
789,000000; 0,052001
788,000000; 0,052362
787,000000; 0,052699
786,000000; 0,052992
785,000000; 0,053193
784,000000; 0,053395
783,000000; 0,053505
782,000000; 0,053522
781,000000; 0,053470
780,000000; 0,053393
779,000000; 0,053317
778,000000; 0,053150
777,000000; 0,052997
776,000000; 0,052881
775,000000; 0,052786
774,000000; 0,052702
773,000000; 0,052676
772,000000; 0,052691
771,000000; 0,052757
770,000000; 0,052890
769,000000; 0,053104
768,000000; 0,053411
767,000000; 0,053752
766,000000; 0,054131
765,000000; 0,054558
764,000000; 0,054988
763,000000; 0,055456
762,000000; 0,055921
761,000000; 0,056363
760,000000; 0,056777
759,000000; 0,057155
758,000000; 0,057412
757,000000; 0,057624
756,000000; 0,057804
755,000000; 0,057939
754,000000; 0,057948
753,000000; 0,057923
752,000000; 0,057853
751,000000; 0,057769
750,000000; 0,057697
749,000000; 0,057615
748,000000; 0,057580
747,000000; 0,057611
746,000000; 0,057698
745,000000; 0,057834
744,000000; 0,058050
743,000000; 0,058368
742,000000; 0,058720
741,000000; 0,059144
740,000000; 0,059642
739,000000; 0,060138
738,000000; 0,060660
737,000000; 0,061215
736,000000; 0,061739
735,000000; 0,062210
734,000000; 0,062655
733,000000; 0,062995
732,000000; 0,063300
731,000000; 0,063537
730,000000; 0,063708
729,000000; 0,063837
728,000000; 0,063867
727,000000; 0,063928
726,000000; 0,063945
725,000000; 0,063948
724,000000; 0,064012
723,000000; 0,064048
722,000000; 0,064172
721,000000; 0,064406
720,000000; 0,064733
719,000000; 0,065125
718,000000; 0,065610
717,000000; 0,066176
716,000000; 0,066800
715,000000; 0,067453
714,000000; 0,068105
713,000000; 0,068742
712,000000; 0,069357
711,000000; 0,069939
710,000000; 0,070458
709,000000; 0,070901
708,000000; 0,071301
707,000000; 0,071553
706,000000; 0,071777
705,000000; 0,071967
704,000000; 0,072121
703,000000; 0,072254
702,000000; 0,072391
701,000000; 0,072606
700,000000; 0,072856
699,000000; 0,073150
698,000000; 0,073573
697,000000; 0,074034
696,000000; 0,074637
695,000000; 0,075310
694,000000; 0,076031
693,000000; 0,076823
692,000000; 0,077664
691,000000; 0,078437
690,000000; 0,079206
689,000000; 0,079951
688,000000; 0,080607
687,000000; 0,081154
686,000000; 0,081687
685,000000; 0,082124
684,000000; 0,082490
683,000000; 0,082827
682,000000; 0,083041
681,000000; 0,083362
680,000000; 0,083722
679,000000; 0,084125
678,000000; 0,084596
677,000000; 0,085205
676,000000; 0,085900
675,000000; 0,086686
674,000000; 0,087547
673,000000; 0,088458
672,000000; 0,089408
671,000000; 0,090417
670,000000; 0,091401
669,000000; 0,092312
668,000000; 0,093131
667,000000; 0,093892
666,000000; 0,094602
665,000000; 0,095221
664,000000; 0,095776
663,000000; 0,096307
662,000000; 0,096866
661,000000; 0,097404
660,000000; 0,098026
659,000000; 0,098738
658,000000; 0,099552
657,000000; 0,100508
656,000000; 0,101557
655,000000; 0,102738
654,000000; 0,104025
653,000000; 0,105396
652,000000; 0,106816
651,000000; 0,108194
650,000000; 0,109583
649,000000; 0,110955
648,000000; 0,112263
647,000000; 0,113469
646,000000; 0,114640
645,000000; 0,115761
644,000000; 0,116844
643,000000; 0,117920
642,000000; 0,119091
641,000000; 0,120324
640,000000; 0,121691
639,000000; 0,123187
638,000000; 0,124783
637,000000; 0,126517
636,000000; 0,128379
635,000000; 0,130300
634,000000; 0,132260
633,000000; 0,134240
632,000000; 0,136186
631,000000; 0,138147
630,000000; 0,140059
629,000000; 0,141918
628,000000; 0,143724
627,000000; 0,145447
626,000000; 0,147122
625,000000; 0,148802
624,000000; 0,150509
623,000000; 0,152262
622,000000; 0,154075
621,000000; 0,155965
620,000000; 0,157946
619,000000; 0,159972
618,000000; 0,162022
617,000000; 0,164110
616,000000; 0,166117
615,000000; 0,168058
614,000000; 0,169871
613,000000; 0,171526
612,000000; 0,173028
611,000000; 0,174324
610,000000; 0,175523
609,000000; 0,176625
608,000000; 0,177665
607,000000; 0,178702
606,000000; 0,179738
605,000000; 0,180838
604,000000; 0,182049
603,000000; 0,183343
602,000000; 0,184673
601,000000; 0,186142
600,000000; 0,187586
599,000000; 0,189019
598,000000; 0,190415
597,000000; 0,191745
596,000000; 0,193000
595,000000; 0,194169
594,000000; 0,195289
593,000000; 0,196425
592,000000; 0,197636
591,000000; 0,198934
590,000000; 0,200403
589,000000; 0,202055
588,000000; 0,203882
587,000000; 0,205870
586,000000; 0,208021
585,000000; 0,210289
584,000000; 0,212567
583,000000; 0,214806
582,000000; 0,216988
581,000000; 0,219138
580,000000; 0,221196
579,000000; 0,223315
578,000000; 0,225429
577,000000; 0,227567
576,000000; 0,229849
575,000000; 0,232307
574,000000; 0,234928
573,000000; 0,237653
572,000000; 0,240450
571,000000; 0,243311
570,000000; 0,246188
569,000000; 0,249034
568,000000; 0,251822
567,000000; 0,254532
566,000000; 0,257155
565,000000; 0,259673
564,000000; 0,262153
563,000000; 0,264656
562,000000; 0,267219
561,000000; 0,269873
560,000000; 0,272666
559,000000; 0,275461
558,000000; 0,278242
557,000000; 0,281030
556,000000; 0,283804
555,000000; 0,286324
554,000000; 0,288726
553,000000; 0,291038
552,000000; 0,293216
551,000000; 0,295271
550,000000; 0,297310
549,000000; 0,299317
548,000000; 0,301296
547,000000; 0,303283
546,000000; 0,305293
545,000000; 0,307287
544,000000; 0,309118
543,000000; 0,310746
542,000000; 0,312222
541,000000; 0,313544
540,000000; 0,314638
539,000000; 0,315462
538,000000; 0,316102
537,000000; 0,316671
536,000000; 0,317199
535,000000; 0,317634
534,000000; 0,317961
533,000000; 0,318180
532,000000; 0,318275
531,000000; 0,318246
530,000000; 0,318108
529,000000; 0,317549
528,000000; 0,316748
527,000000; 0,315694
526,000000; 0,314458
525,000000; 0,313197
524,000000; 0,311695
523,000000; 0,310269
522,000000; 0,308832
521,000000; 0,307321
520,000000; 0,305695
519,000000; 0,304053
518,000000; 0,302235
517,000000; 0,300277
516,000000; 0,298191
515,000000; 0,295968
514,000000; 0,293804
513,000000; 0,291693
512,000000; 0,289719
511,000000; 0,287887
510,000000; 0,286097
509,000000; 0,284415
508,000000; 0,282786
507,000000; 0,281143
506,000000; 0,279411
505,000000; 0,277494
504,000000; 0,275785
503,000000; 0,274162
502,000000; 0,272623
501,000000; 0,271221
500,000000; 0,270099
499,000000; 0,269079
498,000000; 0,268120
497,000000; 0,267135
496,000000; 0,266091
495,000000; 0,265052
494,000000; 0,264060
493,000000; 0,263155
492,000000; 0,262391
491,000000; 0,261813
490,000000; 0,261460
489,000000; 0,261231
488,000000; 0,261001
487,000000; 0,260756
486,000000; 0,260489
485,000000; 0,260198
484,000000; 0,259959
483,000000; 0,259922
482,000000; 0,260087
481,000000; 0,260425
480,000000; 0,260876
479,000000; 0,261300
478,000000; 0,261785
477,000000; 0,262218
476,000000; 0,262597
475,000000; 0,263011
474,000000; 0,263638
473,000000; 0,264557
472,000000; 0,265547
471,000000; 0,266619
470,000000; 0,267679
469,000000; 0,268638
468,000000; 0,269615
467,000000; 0,270522
466,000000; 0,271556
465,000000; 0,272758
464,000000; 0,274153
463,000000; 0,275647
462,000000; 0,277259
461,000000; 0,278786
460,000000; 0,280143
459,000000; 0,281645
458,000000; 0,283134
457,000000; 0,284829
456,000000; 0,286803
455,000000; 0,289058
454,000000; 0,291157
453,000000; 0,293231
452,000000; 0,295217
451,000000; 0,297094
450,000000; 0,299186
449,000000; 0,301565
448,000000; 0,304212
447,000000; 0,306987
446,000000; 0,309703
445,000000; 0,312346
444,000000; 0,314758
443,000000; 0,317273
442,000000; 0,320033
441,000000; 0,323099
440,000000; 0,326420
439,000000; 0,329622
438,000000; 0,332848
437,000000; 0,335969
436,000000; 0,338989
435,000000; 0,342329
434,000000; 0,345959
433,000000; 0,349825
432,000000; 0,353744
431,000000; 0,357614
430,000000; 0,361471
429,000000; 0,365179
428,000000; 0,369237
427,000000; 0,373778
426,000000; 0,378658
425,000000; 0,383496
424,000000; 0,388098
423,000000; 0,392574
422,000000; 0,397307
421,000000; 0,402433
420,000000; 0,407941
419,000000; 0,413719
418,000000; 0,419018
417,000000; 0,424412
416,000000; 0,429941
415,000000; 0,435612
414,000000; 0,441924
413,000000; 0,448205
412,000000; 0,454402
411,000000; 0,460589
410,000000; 0,466854
409,000000; 0,473141
408,000000; 0,480211
407,000000; 0,487368
406,000000; 0,494478
405,000000; 0,501614
404,000000; 0,509202
403,000000; 0,517081
402,000000; 0,525494
401,000000; 0,534066
400,000000; 0,542751
399,000000; 0,552597
398,000000; 0,562168
397,000000; 0,572075
396,000000; 0,582312
395,000000; 0,592791
394,000000; 0,603214
393,000000; 0,613784
392,000000; 0,625303
391,000000; 0,637434
390,000000; 0,649897
389,000000; 0,662679
388,000000; 0,675668
387,000000; 0,689677
386,000000; 0,704785
385,000000; 0,720591
384,000000; 0,735981
383,000000; 0,753186
382,000000; 0,771952
381,000000; 0,791207
380,000000; 0,811365
379,000000; 0,834028
378,000000; 0,855020
377,000000; 0,879013
376,000000; 0,904973
375,000000; 0,932920
374,000000; 0,963719
373,000000; 0,998411
372,000000; 1,032001
371,000000; 1,071219
370,000000; 1,115928
369,000000; 1,164481
368,000000; 1,218558
367,000000; 1,269636
366,000000; 1,340197
365,000000; 1,420850
364,000000; 1,501078
363,000000; 1,596784
362,000000; 1,699854
361,000000; 1,818772
360,000000; 1,904646
359,000000; 1,937378
358,000000; 2,070117
357,000000; 2,135040
356,000000; 2,117061
355,000000; 2,083748
354,000000; 2,153607
353,000000; 2,194635
352,000000; 2,176062
351,000000; 2,221887
350,000000; 2,804864
349,000000; 4,105933
348,000000; 4,227547
347,000000; 4,230018
346,000000; 4,255164
345,000000; 4,302496
344,000000; 4,269753
343,000000; 4,253900
342,000000; 4,295269
341,000000; 4,322324
340,000000; 4,308614
339,000000; 4,279759
338,000000; 4,306962
337,000000; 4,308505
336,000000; 4,329924
335,000000; 4,329294
334,000000; 4,326709
333,000000; 4,366857
332,000000; 4,373724
331,000000; 4,360751
330,000000; 4,376143
329,000000; 4,394863
328,000000; 4,385257
327,000000; 4,407654
326,000000; 4,411399
325,000000; 4,417747
324,000000; 4,430034
323,000000; 4,445828
322,000000; 4,458870
321,000000; 4,456246
320,000000; 4,467443
319,000000; 4,481807
318,000000; 4,481178
317,000000; 4,475223
316,000000; 4,488709
315,000000; 4,512593
314,000000; 4,529475
313,000000; 4,525344
312,000000; 4,552591
311,000000; 4,552798
310,000000; 4,559182
309,000000; 4,567977
308,000000; 4,565172
307,000000; 4,573109
306,000000; 4,584948
305,000000; 4,581076
304,000000; 4,566402
303,000000; 4,558097
302,000000; 4,560115
301,000000; 4,600797
300,000000; 4,611954
299,000000; 4,604649
298,000000; 4,615310
297,000000; 4,574412
296,000000; 4,578662
295,000000; 4,604232
294,000000; 4,625054
293,000000; 4,616851
292,000000; 4,609705
291,000000; 4,608209
290,000000; 4,612329
289,000000; 4,620379
288,000000; 4,629263
287,000000; 4,615291
286,000000; 4,627720
285,000000; 4,641508
284,000000; 4,640168
283,000000; 4,613413
282,000000; 4,612163
281,000000; 4,637170
280,000000; 4,657861
279,000000; 4,659207
278,000000; 4,639910
277,000000; 4,627062
276,000000; 4,652932
275,000000; 4,675046
274,000000; 4,679926
273,000000; 4,679259
272,000000; 4,688072
271,000000; 4,704007
270,000000; 4,724362
269,000000; 4,748186
268,000000; 4,774493
267,000000; 4,740938
266,000000; 4,773971
265,000000; 4,786896
264,000000; 4,782368
263,000000; 4,806136
262,000000; 4,821629
261,000000; 4,833786
260,000000; 4,855063
259,000000; 4,871479
258,000000; 4,867931
257,000000; 4,917698
256,000000; 4,909306
255,000000; 4,900913
254,000000; 4,912465
253,000000; 4,944387
252,000000; 4,952548
251,000000; 4,955833
250,000000; 4,977618
249,000000; 4,999533
248,000000; 5,003002
247,000000; 5,019629
246,000000; 4,984390
245,000000; 5,017702
244,000000; 5,031961
243,000000; 5,024068
242,000000; 5,048017
241,000000; 5,030006
240,000000; 5,033554
239,000000; 5,052735
238,000000; 5,071510
237,000000; 5,071185
236,000000; 5,027816
235,000000; 5,051633
234,000000; 5,079819
233,000000; 5,081493
232,000000; 5,063002
231,000000; 5,089136
230,000000; 5,043510
229,000000; 5,037572
228,000000; 5,043740
227,000000; 5,047400
226,000000; 5,062192
225,000000; 5,050580
224,000000; 5,039378
223,000000; 5,025351
222,000000; 5,017326
221,000000; 5,033610
220,000000; 5,012126
219,000000; 5,025637
218,000000; 5,025024
217,000000; 5,007407
216,000000; 4,991848
215,000000; 5,004244
214,000000; 4,972992
213,000000; 4,952540
212,000000; 4,953160
211,000000; 4,961784
210,000000; 4,920811
209,000000; 4,896271
208,000000; 4,884199
207,000000; 4,878830
206,000000; 4,872658
205,000000; 4,862287
204,000000; 4,820894
203,000000; 4,795418
202,000000; 4,785105
201,000000; 4,773883
200,000000; 4,736576